expMode,trialNumber,midFile,rating,RT1 (manual),RT2 (ratingScale),subjectNumber,date,globalClock
practice, 1, ./practice/a_p_2.mid, No, 3.6362242449977202, 3.624, 19, 2021_Feb_04_1524, 51.14683192500161
practice, 2, ./practice/a_t_2.mid, No, 1.9258748219981499, 1.912, 19, 2021_Feb_04_1524, 75.08907858599923
practice, 3, ./practice/a_p_1.mid, No, 1.1340780409991567, 1.121, 19, 2021_Feb_04_1524, 98.46363009299967
practice, 4, ./practice/a_t_1.mid, No, 2.6956066790007753, 2.683, 19, 2021_Feb_04_1524, 123.04688620600064
experiment, 1, ./mid/a_p_24.mid, Yes, 1.9000779769994551, 1.887, 19, 2021_Feb_04_1524, 153.12991780100128
experiment, 2, ./mid/a_p_22.mid, Yes, 0.8643601600015245, 0.852, 19, 2021_Feb_04_1524, 175.69680746000085
experiment, 3, ./mid/a_t_2.mid, No, 0.9489228410020587, 0.935, 19, 2021_Feb_04_1524, 198.2131664940025
experiment, 4, ./mid/a_t_12.mid, Yes, 0.8093367599976773, 0.797, 19, 2021_Feb_04_1524, 220.1300199899997
experiment, 5, ./mid/a_t_18.mid, Yes, 1.9332769390020985, 0.516, 19, 2021_Feb_04_1524, 248.2823260590012
experiment, 6, ./mid/a_t_24.mid, Yes, 0.7610428150001098, 0.747, 19, 2021_Feb_04_1524, 270.43898953200187
experiment, 7, ./mid/a_p_12.mid, No, 1.3282044740008132, 1.314, 19, 2021_Feb_04_1524, 293.1888705320016
experiment, 8, ./mid/a_t_8.mid, Yes, 1.8595212770014768, 1.846, 19, 2021_Feb_04_1524, 320.7718807279998
experiment, 9, ./mid/a_t_11.mid, Yes, 1.0428113899979508, 1.029, 19, 2021_Feb_04_1524, 345.9885582040006
experiment, 10, ./mid/a_p_23.mid, Yes, 0.8424903589984751, 0.829, 19, 2021_Feb_04_1524, 371.0552462680025
experiment, 11, ./mid/a_t_13.mid, Yes, 1.1553080359990417, 1.143, 19, 2021_Feb_04_1524, 395.32964449200153
experiment, 12, ./mid/a_p_11.mid, Yes, 1.7449509120015136, 1.732, 19, 2021_Feb_04_1524, 420.89640581300046
experiment, 13, ./mid/a_p_6.mid, Yes, 2.8164306369981205, 2.805, 19, 2021_Feb_04_1524, 446.47928385200066
experiment, 14, ./mid/a_p_18.mid, Yes, 1.02657243199792, 1.013, 19, 2021_Feb_04_1524, 473.07181725100236
experiment, 15, ./mid/a_t_17.mid, No, 1.5916294410017144, 1.58, 19, 2021_Feb_04_1524, 496.0455748000022
experiment, 16, ./mid/a_t_22.mid, No, 1.5808037089991558, 1.568, 19, 2021_Feb_04_1524, 518.9796846560021
experiment, 17, ./mid/a_t_16.mid, Yes, 1.492907746000128, 1.48, 19, 2021_Feb_04_1524, 540.546259480001
experiment, 18, ./mid/a_p_17.mid, No, 1.2760313489998225, 1.264, 19, 2021_Feb_04_1524, 563.446241302001
experiment, 19, ./mid/a_t_19.mid, Yes, 2.1756846780008345, 2.162, 19, 2021_Feb_04_1524, 588.1214637720004
experiment, 20, ./mid/a_p_1.mid, No, 0.9587544530004379, 0.945, 19, 2021_Feb_04_1524, 612.304897664002
experiment, 21, ./mid/a_p_19.mid, No, 1.5587039620004361, 1.544, 19, 2021_Feb_04_1524, 636.7723003020001
experiment, 22, ./mid/a_p_20.mid, Yes, 1.8049735489985324, 1.793, 19, 2021_Feb_04_1524, 659.1795606689993
experiment, 23, ./mid/a_t_7.mid, No, 2.1954387730002054, 2.182, 19, 2021_Feb_04_1524, 683.1884116120018
experiment, 24, ./mid/a_p_8.mid, Yes, 1.1063019889988936, 1.094, 19, 2021_Feb_04_1524, 707.1626450300027
experiment, 25, ./mid/a_p_9.mid, No, 1.621679342999414, 1.609, 19, 2021_Feb_04_1524, 730.9791407750017
experiment, 26, ./mid/a_t_9.mid, No, 36.14997775800293, 36.137, 19, 2021_Feb_04_1524, 788.8127122200021
experiment, 27, ./mid/a_t_5.mid, No, 0.9639606839991757, 0.947, 19, 2021_Feb_04_1524, 813.1312358239993
experiment, 28, ./mid/a_p_7.mid, No, 0.8486976619969937, 0.834, 19, 2021_Feb_04_1524, 837.4550251270011
experiment, 29, ./mid/a_p_15.mid, No, 1.4756013819969667, 1.461, 19, 2021_Feb_04_1524, 862.3050141269996
experiment, 30, ./mid/a_t_21.mid, No, 0.7491417869969155, 0.735, 19, 2021_Feb_04_1524, 885.095360927
experiment, 31, ./mid/a_p_16.mid, No, 1.5921247600017523, 1.578, 19, 2021_Feb_04_1524, 909.378379447
experiment, 32, ./mid/a_t_1.mid, No, 0.7629687980006565, 0.746, 19, 2021_Feb_04_1524, 931.3807633050019
experiment, 33, ./mid/a_p_2.mid, No, 1.2331736870000896, 1.219, 19, 2021_Feb_04_1524, 955.8884871299997
experiment, 34, ./mid/a_p_10.mid, No, 0.7877024610024819, 0.775, 19, 2021_Feb_04_1524, 979.2123698880023
experiment, 35, ./mid/a_p_5.mid, No, 1.0951594790021772, 1.081, 19, 2021_Feb_04_1524, 1003.588175017001
experiment, 36, ./mid/a_t_15.mid, No, 0.9122632950020488, 0.899, 19, 2021_Feb_04_1524, 1027.978928212
experiment, 37, ./mid/a_t_23.mid, Yes, 1.710067963002075, 1.697, 19, 2021_Feb_04_1524, 1055.0956635250004
experiment, 38, ./mid/a_t_6.mid, No, 1.0269279290005215, 1.013, 19, 2021_Feb_04_1524, 1079.6046819110015
experiment, 39, ./mid/a_t_10.mid, No, 1.396229145997495, 1.384, 19, 2021_Feb_04_1524, 1102.0621861910004
experiment, 40, ./mid/a_t_20.mid, No, 1.0738681449984142, 1.062, 19, 2021_Feb_04_1524, 1126.3453489210006
experiment, 41, ./mid/a_p_3.mid, Yes, 1.7091126329978579, 1.697, 19, 2021_Feb_04_1524, 1150.962331474002
experiment, 42, ./mid/a_p_13.mid, No, 2.4566762819995347, 2.444, 19, 2021_Feb_04_1524, 1177.2790666440014
experiment, 43, ./mid/a_t_3.mid, No, 3.623028030000569, 3.611, 19, 2021_Feb_04_1524, 1205.145209487
experiment, 44, ./mid/a_t_4.mid, No, 2.9425488770029915, 2.928, 19, 2021_Feb_04_1524, 1229.5046426240006
experiment, 45, ./mid/a_p_14.mid, No, 3.1448063290008577, 3.128, 19, 2021_Feb_04_1524, 1256.8310749209995
experiment, 46, ./mid/a_p_21.mid, No, 3.5909558739986096, 3.577, 19, 2021_Feb_04_1524, 1282.9784182340009
experiment, 47, ./mid/a_t_14.mid, Yes, 23.795356835998973, 23.782, 19, 2021_Feb_04_1524, 1327.3209074750011
experiment, 48, ./mid/a_p_4.mid, No, 3.9617756199986616, 3.945, 19, 2021_Feb_04_1524, 1354.6146863470021
