expMode,trialNumber,midFile,rating,RT1 (manual),RT2 (ratingScale),subjectNumber,date,globalClock
practice, 1, ./practice/a_p_2.mid, Yes, 10.357949419994839, 10.344, 2, 2020_Nov_12_1202, 3863.9001736510254
practice, 2, ./practice/a_t_1.mid, No, 2.7775036889943294, 2.763, 2, 2020_Nov_12_1202, 3890.642777185014
practice, 3, ./practice/a_t_2.mid, No, 2.2377124119957443, 2.225, 2, 2020_Nov_12_1202, 3915.349848501006
practice, 4, ./practice/a_p_1.mid, No, 3.6267747420060914, 3.613, 2, 2020_Nov_12_1202, 3942.1757524540008
experiment, 1, ./mid/a_t_4.mid, No, 1.3874680920271203, 1.375, 2, 2020_Nov_12_1202, 3987.166360973002
experiment, 2, ./mid/a_t_9.mid, No, 7.444103992980672, 7.43, 2, 2020_Nov_12_1202, 4016.2823243220046
experiment, 3, ./mid/a_t_1.mid, Yes, 1.672684618999483, 1.659, 2, 2020_Nov_12_1202, 4039.924929652014
experiment, 4, ./mid/a_t_18.mid, Yes, 1.3293791350151878, 1.317, 2, 2020_Nov_12_1202, 4067.848884352017
experiment, 5, ./mid/a_p_18.mid, Yes, 1.1235957769968081, 1.111, 2, 2020_Nov_12_1202, 4094.5827178590116
experiment, 6, ./mid/a_t_13.mid, Yes, 2.2225489240081515, 2.21, 2, 2020_Nov_12_1202, 4120.31546504001
experiment, 7, ./mid/a_t_2.mid, Yes, 1.6464415040099993, 1.634, 2, 2020_Nov_12_1202, 4145.265427096019
experiment, 8, ./mid/a_p_13.mid, Yes, 2.0316582979867235, 2.018, 2, 2020_Nov_12_1202, 4171.015320471022
experiment, 9, ./mid/a_t_15.mid, No, 2.622913815022912, 2.606, 2, 2020_Nov_12_1202, 4197.2346127650235
experiment, 10, ./mid/a_p_20.mid, No, 2.543628326006001, 2.53, 2, 2020_Nov_12_1202, 4220.257408654026
experiment, 11, ./mid/a_t_3.mid, No, 1.1424372929905076, 1.13, 2, 2020_Nov_12_1202, 4245.5150500250165
experiment, 12, ./mid/a_t_23.mid, No, 1.7585200849862304, 1.742, 2, 2020_Nov_12_1202, 4273.3999448830145
experiment, 13, ./mid/a_p_21.mid, No, 1.4096398759866133, 1.397, 2, 2020_Nov_12_1202, 4297.015098080999
experiment, 14, ./mid/a_p_15.mid, Yes, 1.5070563619956374, 1.493, 2, 2020_Nov_12_1202, 4322.248246531002
experiment, 15, ./mid/a_p_9.mid, Yes, 1.059870666009374, 1.046, 2, 2020_Nov_12_1202, 4345.0903140520095
experiment, 16, ./mid/a_p_17.mid, No, 1.318235888989875, 1.304, 2, 2020_Nov_12_1202, 4368.157327050023
experiment, 17, ./mid/a_p_10.mid, No, 1.592861240991624, 1.58, 2, 2020_Nov_12_1202, 4392.864963499014
experiment, 18, ./mid/a_t_17.mid, Yes, 1.2050574960012455, 1.193, 2, 2020_Nov_12_1202, 4416.264930682024
experiment, 19, ./mid/a_p_2.mid, Yes, 1.1876059640198946, 1.175, 2, 2020_Nov_12_1202, 4441.331390834006
experiment, 20, ./mid/a_p_14.mid, No, 1.1403474879916757, 1.126, 2, 2020_Nov_12_1202, 4465.697718818003
experiment, 21, ./mid/a_p_12.mid, No, 2.459254581015557, 2.447, 2, 2020_Nov_12_1202, 4489.814573128999
experiment, 22, ./mid/a_t_7.mid, No, 1.2322412820067257, 1.22, 2, 2020_Nov_12_1202, 4513.314485390001
experiment, 23, ./mid/a_p_19.mid, Yes, 1.8631855419953354, 1.849, 2, 2020_Nov_12_1202, 4538.414243935025
experiment, 24, ./mid/a_p_3.mid, Yes, 1.3591927340021357, 1.347, 2, 2020_Nov_12_1202, 4562.814523853012
experiment, 25, ./mid/a_p_7.mid, Yes, 4.456893652997678, 4.44, 2, 2020_Nov_12_1202, 4590.700096111017
experiment, 26, ./mid/a_p_16.mid, No, 1.3693541809916496, 1.352, 2, 2020_Nov_12_1202, 4615.15024095602
experiment, 27, ./mid/a_t_19.mid, Yes, 1.3928512109851, 1.379, 2, 2020_Nov_12_1202, 4639.414374601998
experiment, 28, ./mid/a_p_24.mid, Yes, 3.3319410730036907, 3.318, 2, 2020_Nov_12_1202, 4665.240024475002
experiment, 29, ./mid/a_p_8.mid, No, 1.3490463579946663, 1.335, 2, 2020_Nov_12_1202, 4689.447443939018
experiment, 30, ./mid/a_p_4.mid, Yes, 1.4659370049776044, 1.452, 2, 2020_Nov_12_1202, 4714.264189977024
experiment, 31, ./mid/a_t_20.mid, Yes, 1.1330746359890327, 1.12, 2, 2020_Nov_12_1202, 4738.881091797026
experiment, 32, ./mid/a_p_23.mid, No, 1.444615126005374, 1.432, 2, 2020_Nov_12_1202, 4764.664145001007
experiment, 33, ./mid/a_p_11.mid, Yes, 1.2008925910049584, 1.189, 2, 2020_Nov_12_1202, 4789.863999643014
experiment, 34, ./mid/a_t_14.mid, No, 1.1125998590141535, 1.099, 2, 2020_Nov_12_1202, 4811.0970284620125
experiment, 35, ./mid/a_t_21.mid, Yes, 2.1747528330015484, 2.162, 2, 2020_Nov_12_1202, 4835.556267224019
experiment, 36, ./mid/a_t_10.mid, No, 1.5450339730014093, 1.533, 2, 2020_Nov_12_1202, 4858.147507618007
experiment, 37, ./mid/a_t_24.mid, Yes, 4.590708679985255, 4.574, 2, 2020_Nov_12_1202, 4884.399775089027
experiment, 38, ./mid/a_t_8.mid, No, 3.8282070819986984, 3.816, 2, 2020_Nov_12_1202, 4914.113944725017
experiment, 39, ./mid/a_t_5.mid, Yes, 1.8759968880040105, 1.863, 2, 2020_Nov_12_1202, 4939.59719395201
experiment, 40, ./mid/a_t_16.mid, No, 6.257718645007117, 6.246, 2, 2020_Nov_12_1202, 4966.19709176902
experiment, 41, ./mid/a_p_6.mid, Yes, 1.4118193929898553, 1.399, 2, 2020_Nov_12_1202, 4989.83071860901
experiment, 42, ./mid/a_p_22.mid, Yes, 2.4966297569917515, 2.483, 2, 2020_Nov_12_1202, 5014.146868880023
experiment, 43, ./mid/a_t_11.mid, Yes, 1.8264599459944293, 1.813, 2, 2020_Nov_12_1202, 5040.206133721018
experiment, 44, ./mid/a_t_6.mid, No, 1.771027225011494, 1.759, 2, 2020_Nov_12_1202, 5065.547245406022
experiment, 45, ./mid/a_p_1.mid, Yes, 1.0290801380178891, 1.015, 2, 2020_Nov_12_1202, 5089.789997188025
experiment, 46, ./mid/a_p_5.mid, No, 1.3385806749865878, 1.326, 2, 2020_Nov_12_1202, 5114.380261882005
experiment, 47, ./mid/a_t_22.mid, Yes, 2.6573052720050327, 2.645, 2, 2020_Nov_12_1202, 5138.580534200009
experiment, 48, ./mid/a_t_12.mid, Yes, 1.5398790019971784, 1.526, 2, 2020_Nov_12_1202, 5161.3967681630165
