expMode,trialNumber,midFile,rating,RT1 (manual),RT2 (ratingScale),subjectNumber,date,globalClock
practice, 1, ./practice/d_p_2.mid, Yes, 1.7621183389856014, 1.748, 3, 2020_Nov_13_1239, 60.49682227201993
practice, 2, ./practice/d_t_1.mid, No, 1.2967144619906321, 1.284, 3, 2020_Nov_13_1239, 83.846908550011
practice, 3, ./practice/d_p_1.mid, Yes, 1.7276484799804166, 1.714, 3, 2020_Nov_13_1239, 107.73927253001602
practice, 4, ./practice/d_t_2.mid, Yes, 1.6139754280156922, 1.597, 3, 2020_Nov_13_1239, 134.28236637701048
experiment, 1, ./mid/d_p_12.mid, No, 1.4536378449993208, 1.44, 3, 2020_Nov_13_1239, 189.79671591200167
experiment, 2, ./mid/d_p_22.mid, No, 3.4060950000130106, 3.389, 3, 2020_Nov_13_1239, 216.5987319140113
experiment, 3, ./mid/d_t_1.mid, Yes, 2.5522683529998176, 2.539, 3, 2020_Nov_13_1239, 240.91306754702237
experiment, 4, ./mid/d_p_9.mid, Yes, 1.1329351120220963, 1.119, 3, 2020_Nov_13_1239, 265.92976563301636
experiment, 5, ./mid/d_t_18.mid, No, 1.2945754220127128, 1.282, 3, 2020_Nov_13_1239, 288.22976146801375
experiment, 6, ./mid/d_p_8.mid, No, 1.2613591820118017, 1.25, 3, 2020_Nov_13_1239, 312.2133615940111
experiment, 7, ./mid/d_p_21.mid, No, 1.5333322710066568, 1.516, 3, 2020_Nov_13_1239, 336.2986300820194
experiment, 8, ./mid/d_t_4.mid, Yes, 1.0415066260029562, 1.028, 3, 2020_Nov_13_1239, 364.1226187450229
experiment, 9, ./mid/d_p_19.mid, No, 1.8993030420097057, 1.882, 3, 2020_Nov_13_1239, 388.04908049400547
experiment, 10, ./mid/d_p_11.mid, Yes, 0.7122310819977429, 0.698, 3, 2020_Nov_13_1239, 412.7556894060108
experiment, 11, ./mid/d_t_10.mid, Yes, 1.8777509969950188, 1.865, 3, 2020_Nov_13_1239, 436.4963361820264
experiment, 12, ./mid/d_t_15.mid, No, 0.9169962669839151, 0.905, 3, 2020_Nov_13_1239, 459.0632173360209
experiment, 13, ./mid/d_t_2.mid, No, 0.8752733089786489, 0.861, 3, 2020_Nov_13_1239, 484.0723334320064
experiment, 14, ./mid/d_t_12.mid, No, 1.3927207789965905, 1.378, 3, 2020_Nov_13_1239, 508.6226062470232
experiment, 15, ./mid/d_p_16.mid, Yes, 1.6347210700041614, 1.622, 3, 2020_Nov_13_1239, 532.5133062390087
experiment, 16, ./mid/d_p_6.mid, No, 1.607087718002731, 1.59, 3, 2020_Nov_13_1239, 564.0826220670133
experiment, 17, ./mid/d_p_20.mid, Yes, 1.3984967510041315, 1.384, 3, 2020_Nov_13_1239, 588.2464011100237
experiment, 18, ./mid/d_p_17.mid, Yes, 0.7615268520021345, 0.748, 3, 2020_Nov_13_1239, 611.2718444110069
experiment, 19, ./mid/d_p_13.mid, Yes, 0.811344978021225, 0.798, 3, 2020_Nov_13_1239, 634.4885436320037
experiment, 20, ./mid/d_p_2.mid, No, 1.3802735350036528, 1.364, 3, 2020_Nov_13_1239, 659.6656532500056
experiment, 21, ./mid/d_p_4.mid, No, 1.314179368026089, 1.302, 3, 2020_Nov_13_1239, 682.6464458550035
experiment, 22, ./mid/d_p_7.mid, Yes, 1.8560868260101415, 1.844, 3, 2020_Nov_13_1239, 707.8131176960014
experiment, 23, ./mid/d_p_10.mid, No, 1.3333152550039813, 1.317, 3, 2020_Nov_13_1239, 732.9989291460079
experiment, 24, ./mid/d_p_24.mid, Yes, 1.5758220179995988, 1.562, 3, 2020_Nov_13_1239, 757.429787384026
experiment, 25, ./mid/d_t_11.mid, Yes, 1.8527980070211925, 1.836, 3, 2020_Nov_13_1239, 782.182560938003
experiment, 26, ./mid/d_t_23.mid, No, 0.8376283110119402, 0.825, 3, 2020_Nov_13_1239, 807.8797791600227
experiment, 27, ./mid/d_p_14.mid, No, 1.4869278839905746, 1.474, 3, 2020_Nov_13_1239, 832.0799808830197
experiment, 28, ./mid/d_p_3.mid, No, 1.3116591349826194, 1.296, 3, 2020_Nov_13_1239, 857.1394644009997
experiment, 29, ./mid/d_p_1.mid, No, 0.9452576419862453, 0.931, 3, 2020_Nov_13_1239, 881.5796568070073
experiment, 30, ./mid/d_t_24.mid, No, 0.9260312390106265, 0.912, 3, 2020_Nov_13_1239, 906.7130173960177
experiment, 31, ./mid/d_t_21.mid, Yes, 0.8666780409985222, 0.854, 3, 2020_Nov_13_1239, 932.6964917530131
experiment, 32, ./mid/d_t_22.mid, Yes, 1.0160100009816233, 1.003, 3, 2020_Nov_13_1239, 959.3797500000219
experiment, 33, ./mid/d_t_20.mid, No, 1.5909794510225765, 1.578, 3, 2020_Nov_13_1239, 986.2634215390135
experiment, 34, ./mid/d_p_15.mid, Yes, 2.5598380159935914, 2.547, 3, 2020_Nov_13_1239, 1011.1220722660073
experiment, 35, ./mid/d_t_9.mid, Yes, 0.8593065819877665, 0.845, 3, 2020_Nov_13_1239, 1031.5556908319995
experiment, 36, ./mid/d_t_17.mid, No, 1.5093334690027405, 1.496, 3, 2020_Nov_13_1239, 1055.3965175970225
experiment, 37, ./mid/d_t_8.mid, No, 0.9449046940135304, 0.932, 3, 2020_Nov_13_1239, 1078.3299818230153
experiment, 38, ./mid/d_t_14.mid, No, 1.2279550610110164, 1.214, 3, 2020_Nov_13_1239, 1101.3054254830058
experiment, 39, ./mid/d_t_7.mid, Yes, 3.091338578989962, 3.078, 3, 2020_Nov_13_1239, 1126.713344557007
experiment, 40, ./mid/d_t_3.mid, No, 1.8926216700056102, 1.879, 3, 2020_Nov_13_1239, 1150.6130155930005
experiment, 41, ./mid/d_t_5.mid, Yes, 0.9382047219842207, 0.926, 3, 2020_Nov_13_1239, 1173.2299109390005
experiment, 42, ./mid/d_t_19.mid, No, 0.9162057820067275, 0.899, 3, 2020_Nov_13_1239, 1198.3159154260065
experiment, 43, ./mid/d_t_6.mid, Yes, 0.7266271580010653, 0.713, 3, 2020_Nov_13_1239, 1225.7631764789985
experiment, 44, ./mid/d_p_18.mid, Yes, 0.9868907270138152, 0.973, 3, 2020_Nov_13_1239, 1249.413272425998
experiment, 45, ./mid/d_t_16.mid, Yes, 1.9258311720041092, 1.913, 3, 2020_Nov_13_1239, 1274.5301681590208
experiment, 46, ./mid/d_t_13.mid, Yes, 0.829543639003532, 0.817, 3, 2020_Nov_13_1239, 1297.8633203160134
experiment, 47, ./mid/d_p_23.mid, Yes, 1.6758065999893006, 1.664, 3, 2020_Nov_13_1239, 1322.3634420160088
experiment, 48, ./mid/d_p_5.mid, Yes, 0.9123237269814126, 0.898, 3, 2020_Nov_13_1239, 1347.0466534120205
