expMode,trialNumber,midFile,rating,RT1 (manual),RT2 (ratingScale),subjectNumber,date,globalClock
practice, 1, ./practice/d_t_1.mid, No, 2.2067067320022034, 2.193, 11, 2021_Jan_28_1213, 63.279964685003506
practice, 2, ./practice/d_p_1.mid, No, 1.3756909780058777, 1.363, 11, 2021_Jan_28_1213, 87.46365639498981
practice, 3, ./practice/d_p_2.mid, No, 1.4092948959878413, 1.397, 11, 2021_Jan_28_1213, 112.53042499099683
practice, 4, ./practice/d_t_2.mid, No, 2.2227772569895023, 2.206, 11, 2021_Jan_28_1213, 139.88287065499753
experiment, 1, ./mid/d_t_13.mid, No, 1.4162444929970661, 1.399, 11, 2021_Jan_28_1213, 173.7328179689939
experiment, 2, ./mid/d_p_6.mid, Yes, 4.110795655986294, 4.097, 11, 2021_Jan_28_1213, 201.92981132899877
experiment, 3, ./mid/d_t_15.mid, Yes, 1.0789428380085155, 1.062, 11, 2021_Jan_28_1213, 224.78264626099553
experiment, 4, ./mid/d_p_5.mid, No, 2.329638098992291, 2.314, 11, 2021_Jan_28_1213, 250.80643689399585
experiment, 5, ./mid/d_t_20.mid, Yes, 1.3711313040112145, 1.359, 11, 2021_Jan_28_1213, 277.49711037799716
experiment, 6, ./mid/d_p_10.mid, Yes, 1.7147448159958003, 1.702, 11, 2021_Jan_28_1213, 302.97240192399477
experiment, 7, ./mid/d_p_1.mid, No, 3.394897296006093, 3.378, 11, 2021_Jan_28_1213, 329.8324871119985
experiment, 8, ./mid/d_p_13.mid, No, 1.0447921509912703, 1.031, 11, 2021_Jan_28_1213, 353.422908869994
experiment, 9, ./mid/d_p_2.mid, Yes, 1.4281618109962437, 1.414, 11, 2021_Jan_28_1213, 378.66333275799116
experiment, 10, ./mid/d_p_20.mid, No, 1.3981991140026366, 1.384, 11, 2021_Jan_28_1213, 402.7800791990012
experiment, 11, ./mid/d_t_19.mid, No, 1.1152746669977205, 1.101, 11, 2021_Jan_28_1213, 428.1894600230007
experiment, 12, ./mid/d_t_2.mid, Yes, 4.062170725010219, 4.049, 11, 2021_Jan_28_1213, 456.38880550400063
experiment, 13, ./mid/d_p_15.mid, Yes, 1.0718234130035853, 1.059, 11, 2021_Jan_28_1213, 479.6965948080033
experiment, 14, ./mid/d_t_17.mid, No, 4.222496812988538, 4.208, 11, 2021_Jan_28_1213, 506.16353987299954
experiment, 15, ./mid/d_t_1.mid, No, 1.42631056800019, 1.413, 11, 2021_Jan_28_1213, 529.3722631459968
experiment, 16, ./mid/d_p_18.mid, Yes, 1.0969507499976316, 1.083, 11, 2021_Jan_28_1213, 553.1300538149953
experiment, 17, ./mid/d_p_11.mid, Yes, 1.325781238003401, 1.312, 11, 2021_Jan_28_1213, 578.4730027460027
experiment, 18, ./mid/d_t_7.mid, Yes, 5.532352877999074, 5.52, 11, 2021_Jan_28_1213, 606.1300584690034
experiment, 19, ./mid/d_p_4.mid, No, 1.4593642490071943, 1.446, 11, 2021_Jan_28_1213, 630.0725537239923
experiment, 20, ./mid/d_p_19.mid, No, 1.0475704120035516, 1.034, 11, 2021_Jan_28_1213, 653.2635216789931
experiment, 21, ./mid/d_t_8.mid, Yes, 1.0430478519992903, 1.029, 11, 2021_Jan_28_1213, 676.246764148993
experiment, 22, ./mid/d_p_23.mid, No, 1.665485589997843, 1.652, 11, 2021_Jan_28_1213, 700.7891716250015
experiment, 23, ./mid/d_p_14.mid, No, 1.356404484991799, 1.344, 11, 2021_Jan_28_1213, 724.8636007969908
experiment, 24, ./mid/d_t_24.mid, Yes, 1.040163389989175, 1.028, 11, 2021_Jan_28_1213, 750.0969067879923
experiment, 25, ./mid/d_t_16.mid, No, 1.0628549880057108, 1.049, 11, 2021_Jan_28_1213, 774.2134716720029
experiment, 26, ./mid/d_t_6.mid, Yes, 1.1341525789903244, 1.121, 11, 2021_Jan_28_1213, 802.2895097330038
experiment, 27, ./mid/d_t_4.mid, Yes, 1.2674307689885609, 1.251, 11, 2021_Jan_28_1213, 830.3829139349982
experiment, 28, ./mid/d_p_16.mid, No, 1.3994246630027192, 1.387, 11, 2021_Jan_28_1213, 853.9639782640006
experiment, 29, ./mid/d_p_9.mid, No, 1.4780647349980427, 1.465, 11, 2021_Jan_28_1213, 879.4971708959929
experiment, 30, ./mid/d_t_10.mid, No, 1.0420304269937333, 1.03, 11, 2021_Jan_28_1213, 902.580227280996
experiment, 31, ./mid/d_p_12.mid, No, 1.1391851250082254, 1.125, 11, 2021_Jan_28_1213, 925.1800999109983
experiment, 32, ./mid/d_t_3.mid, Yes, 1.2562705040036235, 1.244, 11, 2021_Jan_28_1213, 948.3137980600004
experiment, 33, ./mid/d_t_21.mid, Yes, 5.907811596000101, 5.894, 11, 2021_Jan_28_1213, 979.3725564789929
experiment, 34, ./mid/d_p_3.mid, Yes, 1.3558580780081684, 1.339, 11, 2021_Jan_28_1213, 1004.3997490979964
experiment, 35, ./mid/d_p_7.mid, No, 4.646369597001467, 4.633, 11, 2021_Jan_28_1213, 1031.8968270229961
experiment, 36, ./mid/d_p_22.mid, Yes, 1.0804290889936965, 1.068, 11, 2021_Jan_28_1213, 1056.4471159879904
experiment, 37, ./mid/d_p_24.mid, Yes, 0.9614615839964245, 0.949, 11, 2021_Jan_28_1213, 1080.1305991230038
experiment, 38, ./mid/d_t_14.mid, No, 0.981891182003892, 0.969, 11, 2021_Jan_28_1213, 1102.7473086579994
experiment, 39, ./mid/d_t_22.mid, Yes, 1.009361403004732, 0.995, 11, 2021_Jan_28_1213, 1129.4635289799917
experiment, 40, ./mid/d_p_17.mid, No, 1.3611577370029408, 1.347, 11, 2021_Jan_28_1213, 1153.22285185699
experiment, 41, ./mid/d_t_12.mid, No, 1.3779889430006733, 1.366, 11, 2021_Jan_28_1213, 1177.8636512189987
experiment, 42, ./mid/d_t_18.mid, No, 1.2772793930053012, 1.26, 11, 2021_Jan_28_1213, 1200.1999358149915
experiment, 43, ./mid/d_t_9.mid, No, 1.2791645859979326, 1.262, 11, 2021_Jan_28_1213, 1221.0163148889987
experiment, 44, ./mid/d_p_21.mid, No, 1.288321314001223, 1.276, 11, 2021_Jan_28_1213, 1244.8640852359968
experiment, 45, ./mid/d_t_11.mid, No, 1.1654533949913457, 1.152, 11, 2021_Jan_28_1213, 1268.8894699189987
experiment, 46, ./mid/d_t_23.mid, Yes, 1.193519043008564, 1.181, 11, 2021_Jan_28_1213, 1294.9139067170036
experiment, 47, ./mid/d_p_8.mid, No, 1.3260324389993912, 1.312, 11, 2021_Jan_28_1213, 1319.2471344779915
experiment, 48, ./mid/d_t_5.mid, Yes, 1.459199078992242, 1.445, 11, 2021_Jan_28_1213, 1342.4897139889945
