expMode,trialNumber,midFile,rating,RT1 (manual),RT2 (ratingScale),subjectNumber,date,globalClock
practice, 1, ./practice/a_t_1.mid, No, 3.138310263999756, 3.121, 21, 2021_Feb_08_1033, 48.78270662299974
practice, 2, ./practice/a_t_2.mid, No, 4.560179377000168, 4.545, 21, 2021_Feb_08_1033, 75.55629628299994
practice, 3, ./practice/a_p_2.mid, No, 2.4395453659999475, 2.423, 21, 2021_Feb_08_1033, 99.9493952150001
practice, 4, ./practice/a_p_1.mid, Yes, 5.024461856000016, 5.012, 21, 2021_Feb_08_1033, 127.34699130199988
experiment, 1, ./mid/a_t_11.mid, Yes, 1.1714443109999593, 1.159, 21, 2021_Feb_08_1033, 159.03020054199987
experiment, 2, ./mid/a_t_19.mid, No, 2.4620634599996265, 2.45, 21, 2021_Feb_08_1033, 184.41381599199985
experiment, 3, ./mid/a_t_17.mid, Yes, 1.3613787409999532, 1.348, 21, 2021_Feb_08_1033, 207.23952566599974
experiment, 4, ./mid/a_p_9.mid, No, 2.172206212999754, 2.16, 21, 2021_Feb_08_1033, 231.48023498099974
experiment, 5, ./mid/a_p_14.mid, No, 1.3068142490001264, 1.293, 21, 2021_Feb_08_1033, 255.5228246749998
experiment, 6, ./mid/a_p_16.mid, No, 2.0985959879999427, 2.086, 21, 2021_Feb_08_1033, 280.36361498899987
experiment, 7, ./mid/a_t_16.mid, No, 4.154346960000112, 4.14, 21, 2021_Feb_08_1033, 304.83011117499973
experiment, 8, ./mid/a_t_1.mid, Yes, 1.161141162000149, 1.149, 21, 2021_Feb_08_1033, 331.04697594399977
experiment, 9, ./mid/a_t_14.mid, No, 1.0599788389999958, 1.046, 21, 2021_Feb_08_1033, 352.48956206599996
experiment, 10, ./mid/a_p_20.mid, No, 2.328303302999757, 0.548, 21, 2021_Feb_08_1033, 375.0393432369997
experiment, 11, ./mid/a_t_24.mid, Yes, 3.1452118430001974, 3.132, 21, 2021_Feb_08_1033, 399.639586407
experiment, 12, ./mid/a_p_1.mid, Yes, 1.1420122280001124, 1.129, 21, 2021_Feb_08_1033, 424.08921505299986
experiment, 13, ./mid/a_p_3.mid, Yes, 2.2124769949996335, 2.199, 21, 2021_Feb_08_1033, 449.106153447
experiment, 14, ./mid/a_t_5.mid, Yes, 1.9873796830001993, 1.975, 21, 2021_Feb_08_1033, 474.56370014699996
experiment, 15, ./mid/a_t_3.mid, Yes, 2.427738646999842, 2.414, 21, 2021_Feb_08_1033, 500.18010598399997
experiment, 16, ./mid/a_p_5.mid, No, 3.1800692850001724, 3.168, 21, 2021_Feb_08_1033, 526.7304750419999
experiment, 17, ./mid/a_p_17.mid, Yes, 5.877568990999862, 5.866, 21, 2021_Feb_08_1033, 554.2634197929997
experiment, 18, ./mid/a_p_13.mid, Yes, 2.07108535999987, 2.057, 21, 2021_Feb_08_1033, 579.7635138369997
experiment, 19, ./mid/a_t_6.mid, No, 1.8481482300003336, 1.836, 21, 2021_Feb_08_1033, 605.1302843409999
experiment, 20, ./mid/a_t_12.mid, No, 1.2575924899997517, 1.244, 21, 2021_Feb_08_1033, 627.629945962
experiment, 21, ./mid/a_p_24.mid, Yes, 1.1219120790001398, 1.107, 21, 2021_Feb_08_1033, 651.073416494
experiment, 22, ./mid/a_p_12.mid, No, 0.9770488869999099, 0.963, 21, 2021_Feb_08_1033, 673.6563443539999
experiment, 23, ./mid/a_t_20.mid, Yes, 4.60440558099981, 4.592, 21, 2021_Feb_08_1033, 701.6305311309998
experiment, 24, ./mid/a_p_15.mid, No, 1.7552853789998153, 1.741, 21, 2021_Feb_08_1033, 726.8468831549999
experiment, 25, ./mid/a_p_2.mid, No, 2.1277265399999123, 2.115, 21, 2021_Feb_08_1033, 752.4637908340001
experiment, 26, ./mid/a_t_7.mid, Yes, 0.9479403169998477, 0.931, 21, 2021_Feb_08_1033, 775.3497642329999
experiment, 27, ./mid/a_t_13.mid, No, 3.0971634630000153, 3.08, 21, 2021_Feb_08_1033, 801.73299748
experiment, 28, ./mid/a_t_10.mid, No, 1.209448278000309, 1.196, 21, 2021_Feb_08_1033, 824.073009444
experiment, 29, ./mid/a_t_18.mid, Yes, 6.075628646000041, 6.062, 21, 2021_Feb_08_1033, 856.4230884929998
experiment, 30, ./mid/a_t_21.mid, Yes, 3.295150967000154, 3.282, 21, 2021_Feb_08_1033, 881.839182878
experiment, 31, ./mid/a_p_10.mid, No, 1.6780484609998894, 1.661, 21, 2021_Feb_08_1033, 906.1659591560001
experiment, 32, ./mid/a_p_6.mid, Yes, 1.8946002249999765, 1.882, 21, 2021_Feb_08_1033, 930.4138517789997
experiment, 33, ./mid/a_t_23.mid, No, 3.2683775119999154, 3.252, 21, 2021_Feb_08_1033, 959.1830502180001
experiment, 34, ./mid/a_t_22.mid, Yes, 1.5069757299997946, 1.494, 21, 2021_Feb_08_1033, 982.1640665340001
experiment, 35, ./mid/a_p_19.mid, No, 3.4804092520002996, 3.468, 21, 2021_Feb_08_1033, 1008.2803494899999
experiment, 36, ./mid/a_t_4.mid, No, 3.427676732999771, 3.414, 21, 2021_Feb_08_1033, 1033.1136776109997
experiment, 37, ./mid/a_p_18.mid, No, 1.8452224299999216, 1.833, 21, 2021_Feb_08_1033, 1060.164207292
experiment, 38, ./mid/a_p_21.mid, Yes, 2.3723566329999812, 2.359, 21, 2021_Feb_08_1033, 1084.7137730959998
experiment, 39, ./mid/a_p_8.mid, No, 7.64343417200007, 7.63, 21, 2021_Feb_08_1033, 1114.956179798
experiment, 40, ./mid/a_p_22.mid, Yes, 2.0470761619999394, 2.035, 21, 2021_Feb_08_1033, 1138.8970002669998
experiment, 41, ./mid/a_p_4.mid, Yes, 1.553946519999954, 1.54, 21, 2021_Feb_08_1033, 1163.747137934
experiment, 42, ./mid/a_t_2.mid, No, 6.298848546999579, 6.282, 21, 2021_Feb_08_1033, 1191.648995698
experiment, 43, ./mid/a_t_9.mid, No, 4.057700263999777, 4.045, 21, 2021_Feb_08_1033, 1216.930427668
experiment, 44, ./mid/a_t_8.mid, Yes, 3.1939962500000547, 3.18, 21, 2021_Feb_08_1033, 1245.872863131
experiment, 45, ./mid/a_t_15.mid, No, 1.9840071819999139, 1.967, 21, 2021_Feb_08_1033, 1271.1496208879998
experiment, 46, ./mid/a_p_11.mid, Yes, 1.912043881000045, 1.899, 21, 2021_Feb_08_1033, 1296.980554149
experiment, 47, ./mid/a_p_23.mid, Yes, 2.33976583499998, 2.327, 21, 2021_Feb_08_1033, 1323.614053454
experiment, 48, ./mid/a_p_7.mid, No, 1.0933315239999502, 1.079, 21, 2021_Feb_08_1033, 1348.523594743
