expMode,trialNumber,midFile,rating,RT1 (manual),RT2 (ratingScale),subjectNumber,date,globalClock
practice, 1, ./practice/d_p_1.mid, No, 1.2729990709922276, 1.261, 4, 2020_Dec_10_1331, 88.86312651901972
practice, 2, ./practice/d_t_1.mid, No, 1.8281716050114483, 1.811, 4, 2020_Dec_10_1331, 112.86507045599865
practice, 3, ./practice/d_p_2.mid, Yes, 1.4621555400080979, 1.448, 4, 2020_Dec_10_1331, 138.3129653460055
practice, 4, ./practice/d_t_2.mid, No, 3.544451415014919, 3.53, 4, 2020_Dec_10_1331, 167.12221968601807
experiment, 1, ./mid/d_p_22.mid, Yes, 2.4230282499920577, 2.409, 4, 2020_Dec_10_1331, 265.83867646500585
experiment, 2, ./mid/d_t_18.mid, Yes, 2.328420229983749, 2.315, 4, 2020_Dec_10_1331, 288.9377815890184
experiment, 3, ./mid/d_t_4.mid, Yes, 1.6237532749946695, 1.61, 4, 2020_Dec_10_1331, 317.32909450601437
experiment, 4, ./mid/d_t_13.mid, No, 1.0121921300014947, 1.0, 4, 2020_Dec_10_1331, 340.59582954400685
experiment, 5, ./mid/d_t_6.mid, Yes, 1.3086638649983797, 1.296, 4, 2020_Dec_10_1331, 368.49539092800114
experiment, 6, ./mid/d_p_2.mid, No, 1.1766221560246777, 1.163, 4, 2020_Dec_10_1331, 393.52865275600925
experiment, 7, ./mid/d_p_24.mid, No, 3.4782290949951857, 3.461, 4, 2020_Dec_10_1331, 419.8811610309931
experiment, 8, ./mid/d_p_1.mid, No, 1.4341472370142583, 1.417, 4, 2020_Dec_10_1331, 444.8644878710038
experiment, 9, ./mid/d_p_19.mid, Yes, 1.5414862540201284, 1.528, 4, 2020_Dec_10_1331, 468.6212686060171
experiment, 10, ./mid/d_t_16.mid, No, 2.8987233100051526, 2.885, 4, 2020_Dec_10_1331, 498.3450964440126
experiment, 11, ./mid/d_t_12.mid, No, 1.129620416002581, 1.116, 4, 2020_Dec_10_1331, 522.3785828129912
experiment, 12, ./mid/d_t_14.mid, Yes, 1.281782848003786, 1.271, 4, 2020_Dec_10_1331, 545.4118799699936
experiment, 13, ./mid/d_t_21.mid, Yes, 3.8280171910009813, 3.816, 4, 2020_Dec_10_1331, 574.6117908270098
experiment, 14, ./mid/d_t_23.mid, No, 1.9123976609844249, 1.898, 4, 2020_Dec_10_1331, 601.3047830529977
experiment, 15, ./mid/d_p_6.mid, No, 2.3965945359959733, 2.384, 4, 2020_Dec_10_1331, 627.7950356370129
experiment, 16, ./mid/d_p_13.mid, Yes, 2.3784192830207758, 2.365, 4, 2020_Dec_10_1331, 652.5039215589932
experiment, 17, ./mid/d_p_14.mid, No, 1.6981581459986046, 1.686, 4, 2020_Dec_10_1331, 676.8950326240156
experiment, 18, ./mid/d_p_8.mid, Yes, 1.075993684004061, 1.059, 4, 2020_Dec_10_1331, 701.1473838220118
experiment, 19, ./mid/d_t_17.mid, No, 1.3081138590059709, 1.294, 4, 2020_Dec_10_1331, 724.9706641189987
experiment, 20, ./mid/d_p_20.mid, No, 0.8599847629957367, 0.848, 4, 2020_Dec_10_1331, 748.5784597769962
experiment, 21, ./mid/d_p_7.mid, No, 2.193431313004112, 2.18, 4, 2020_Dec_10_1331, 773.6039504299988
experiment, 22, ./mid/d_t_11.mid, Yes, 4.611607049999293, 4.595, 4, 2020_Dec_10_1331, 835.530421317002
experiment, 23, ./mid/d_p_15.mid, No, 1.7659037389967125, 1.752, 4, 2020_Dec_10_1331, 859.7542251360137
experiment, 24, ./mid/d_t_5.mid, Yes, 1.1663761670060921, 1.15, 4, 2020_Dec_10_1331, 883.5471098410198
experiment, 25, ./mid/d_p_16.mid, No, 2.7033917939988896, 2.691, 4, 2020_Dec_10_1331, 908.4278943460085
experiment, 26, ./mid/d_t_15.mid, Yes, 1.246094593021553, 1.232, 4, 2020_Dec_10_1331, 931.4111063090095
experiment, 27, ./mid/d_t_3.mid, No, 14.528065089019947, 14.516, 4, 2020_Dec_10_1331, 967.9947827479918
experiment, 28, ./mid/d_p_9.mid, No, 1.3050972310011275, 1.291, 4, 2020_Dec_10_1331, 1027.8776813290024
experiment, 29, ./mid/d_p_5.mid, No, 1.8445283079927322, 1.831, 4, 2020_Dec_10_1331, 1053.5608242710005
experiment, 30, ./mid/d_t_19.mid, Yes, 4.526131357997656, 4.514, 4, 2020_Dec_10_1331, 1082.1610984700092
experiment, 31, ./mid/d_t_9.mid, Yes, 1.3935984460113104, 1.38, 4, 2020_Dec_10_1331, 1102.9700147190015
experiment, 32, ./mid/d_t_1.mid, No, 7.774568391003413, 7.762, 4, 2020_Dec_10_1331, 1132.511081892997
experiment, 33, ./mid/d_p_21.mid, No, 1.6622197430115193, 1.648, 4, 2020_Dec_10_1331, 1156.7698851470195
experiment, 34, ./mid/d_t_20.mid, Yes, 2.31141512200702, 2.298, 4, 2020_Dec_10_1331, 1184.4607402640104
experiment, 35, ./mid/d_p_17.mid, Yes, 1.1236274789844174, 1.111, 4, 2020_Dec_10_1331, 1208.5274353919958
experiment, 36, ./mid/d_t_7.mid, Yes, 1.7429353720217478, 1.73, 4, 2020_Dec_10_1331, 1232.377570482
experiment, 37, ./mid/d_p_4.mid, Yes, 1.412245805026032, 1.399, 4, 2020_Dec_10_1331, 1255.3865552759962
experiment, 38, ./mid/d_t_22.mid, Yes, 7.47399018300348, 7.46, 4, 2020_Dec_10_1331, 1288.577106917015
experiment, 39, ./mid/d_t_8.mid, Yes, 1.1131733590154909, 1.1, 4, 2020_Dec_10_1331, 1320.1699748230167
experiment, 40, ./mid/d_p_10.mid, Yes, 1.8444605590193532, 1.83, 4, 2020_Dec_10_1331, 1345.7528212809993
experiment, 41, ./mid/d_t_24.mid, No, 2.7927937890053727, 2.78, 4, 2020_Dec_10_1331, 1372.6771443150064
experiment, 42, ./mid/d_t_10.mid, Yes, 3.5322035439894535, 3.516, 4, 2020_Dec_10_1331, 1398.0793941029988
experiment, 43, ./mid/d_t_2.mid, No, 7.593746377999196, 7.58, 4, 2020_Dec_10_1331, 1429.7364177489944
experiment, 44, ./mid/d_p_18.mid, Yes, 1.6059370230068453, 1.592, 4, 2020_Dec_10_1331, 1454.4935954380198
experiment, 45, ./mid/d_p_23.mid, No, 1.65937760999077, 1.647, 4, 2020_Dec_10_1331, 1478.6935771680146
experiment, 46, ./mid/d_p_12.mid, Yes, 1.248356269003125, 1.236, 4, 2020_Dec_10_1331, 1501.4104073749913
experiment, 47, ./mid/d_p_11.mid, Yes, 11.354977288021473, 11.342, 4, 2020_Dec_10_1331, 1536.560381246003
experiment, 48, ./mid/d_p_3.mid, Yes, 2.828162006015191, 2.811, 4, 2020_Dec_10_1331, 1562.9626692500024
