expMode,trialNumber,midFile,rating,RT1 (manual),RT2 (ratingScale),subjectNumber,date,globalClock
practice, 1, ./practice/a_p_1.mid, Yes, 1.9877999300006195, 1.976, 10, 2021_Jan_15_1700, 53.06378567399952
practice, 2, ./practice/a_p_2.mid, No, 1.5447121830002288, 1.532, 10, 2021_Jan_15_1700, 76.93053865399997
practice, 3, ./practice/a_t_2.mid, Yes, 1.6616630569988047, 1.649, 10, 2021_Jan_15_1700, 100.66395930100043
practice, 4, ./practice/a_t_1.mid, Yes, 1.3046311940015585, 1.293, 10, 2021_Jan_15_1700, 123.76345343900175
experiment, 1, ./mid/a_t_19.mid, Yes, 1.50827651399959, 1.492, 10, 2021_Jan_15_1700, 154.3994246220027
experiment, 2, ./mid/a_p_14.mid, No, 1.3333812919991033, 1.317, 10, 2021_Jan_15_1700, 178.79926089299988
experiment, 3, ./mid/a_p_15.mid, No, 3.880203528999118, 3.866, 10, 2021_Jan_15_1700, 206.38060260600105
experiment, 4, ./mid/a_t_5.mid, No, 4.016742750998674, 4.0, 10, 2021_Jan_15_1700, 234.34942305400182
experiment, 5, ./mid/a_t_10.mid, Yes, 1.5257953010004712, 1.512, 10, 2021_Jan_15_1700, 257.22278638600255
experiment, 6, ./mid/a_p_22.mid, Yes, 4.4420745839997835, 4.43, 10, 2021_Jan_15_1700, 283.7639483790008
experiment, 7, ./mid/a_t_18.mid, Yes, 1.1628669780002383, 1.15, 10, 2021_Jan_15_1700, 311.39722017700115
experiment, 8, ./mid/a_p_4.mid, Yes, 1.3924626269981673, 1.378, 10, 2021_Jan_15_1700, 336.1637385670001
experiment, 9, ./mid/a_p_3.mid, No, 1.0421283899995615, 1.028, 10, 2021_Jan_15_1700, 360.38982469000257
experiment, 10, ./mid/a_p_8.mid, Yes, 1.3215439980012889, 1.309, 10, 2021_Jan_15_1700, 384.31380615500166
experiment, 11, ./mid/a_t_14.mid, No, 2.259780836000573, 2.248, 10, 2021_Jan_15_1700, 406.8139778629993
experiment, 12, ./mid/a_p_13.mid, Yes, 1.3817634609986271, 1.369, 10, 2021_Jan_15_1700, 431.9474008950019
experiment, 13, ./mid/a_p_7.mid, No, 1.072141422999266, 1.06, 10, 2021_Jan_15_1700, 456.5474929129996
experiment, 14, ./mid/a_t_16.mid, No, 1.409662699999899, 1.396, 10, 2021_Jan_15_1700, 478.3641694630023
experiment, 15, ./mid/a_p_20.mid, No, 1.4643088360026013, 1.452, 10, 2021_Jan_15_1700, 500.1311498040013
experiment, 16, ./mid/a_t_13.mid, No, 1.1926762289986073, 1.179, 10, 2021_Jan_15_1700, 524.7898030659999
experiment, 17, ./mid/a_t_22.mid, Yes, 1.6488274349976564, 1.636, 10, 2021_Jan_15_1700, 548.1143957660024
experiment, 18, ./mid/a_p_1.mid, Yes, 1.1333268380003574, 1.119, 10, 2021_Jan_15_1700, 573.0641375769992
experiment, 19, ./mid/a_t_3.mid, Yes, 2.2949512000013783, 2.283, 10, 2021_Jan_15_1700, 598.7146054190016
experiment, 20, ./mid/a_p_9.mid, No, 1.2303795379993971, 1.214, 10, 2021_Jan_15_1700, 621.7169180000019
experiment, 21, ./mid/a_t_17.mid, No, 1.1088710370022454, 1.095, 10, 2021_Jan_15_1700, 644.6402700819999
experiment, 22, ./mid/a_t_11.mid, No, 1.444862254000327, 1.431, 10, 2021_Jan_15_1700, 670.5808436459993
experiment, 23, ./mid/a_t_8.mid, No, 1.0684110869988217, 1.052, 10, 2021_Jan_15_1700, 697.6167403590007
experiment, 24, ./mid/a_p_2.mid, No, 1.661250397999538, 1.647, 10, 2021_Jan_15_1700, 722.8570380480014
experiment, 25, ./mid/a_p_10.mid, No, 10.881554626001162, 10.868, 10, 2021_Jan_15_1700, 756.6069580799995
experiment, 26, ./mid/a_p_23.mid, No, 1.2147556340023584, 1.202, 10, 2021_Jan_15_1700, 782.3316385710023
experiment, 27, ./mid/a_p_16.mid, No, 1.5283780940008, 1.516, 10, 2021_Jan_15_1700, 806.9812452160004
experiment, 28, ./mid/a_p_24.mid, No, 9.098975552999036, 9.082, 10, 2021_Jan_15_1700, 838.5334530559994
experiment, 29, ./mid/a_t_6.mid, No, 1.381253015002585, 1.367, 10, 2021_Jan_15_1700, 863.7645728019997
experiment, 30, ./mid/a_t_15.mid, Yes, 1.3597711510010413, 1.346, 10, 2021_Jan_15_1700, 888.6148375810008
experiment, 31, ./mid/a_t_4.mid, Yes, 1.131682949999231, 1.119, 10, 2021_Jan_15_1700, 911.2484060300012
experiment, 32, ./mid/a_t_1.mid, Yes, 1.5100059079995845, 1.497, 10, 2021_Jan_15_1700, 934.3073038290022
experiment, 33, ./mid/a_p_17.mid, No, 1.2213615820000996, 1.209, 10, 2021_Jan_15_1700, 957.4480936069995
experiment, 34, ./mid/a_t_23.mid, Yes, 1.9128204099979484, 1.9, 10, 2021_Jan_15_1700, 985.0239676560013
experiment, 35, ./mid/a_t_9.mid, No, 1.124851385000511, 1.111, 10, 2021_Jan_15_1700, 1007.8314874940006
experiment, 36, ./mid/a_t_20.mid, Yes, 1.8449492750005447, 1.832, 10, 2021_Jan_15_1700, 1033.6070942139995
experiment, 37, ./mid/a_p_11.mid, Yes, 1.175241406999703, 1.161, 10, 2021_Jan_15_1700, 1058.8316089600012
experiment, 38, ./mid/a_t_24.mid, No, 1.1467178079983569, 1.133, 10, 2021_Jan_15_1700, 1081.6812088879997
experiment, 39, ./mid/a_p_18.mid, No, 1.4533840180010884, 1.44, 10, 2021_Jan_15_1700, 1108.648283898001
experiment, 40, ./mid/a_p_5.mid, Yes, 2.1798928640018858, 2.168, 10, 2021_Jan_15_1700, 1134.3315546020021
experiment, 41, ./mid/a_p_12.mid, Yes, 2.013788004998787, 1.997, 10, 2021_Jan_15_1700, 1158.1170522400025
experiment, 42, ./mid/a_t_7.mid, Yes, 1.2785007179991226, 1.265, 10, 2021_Jan_15_1700, 1181.3576204710007
experiment, 43, ./mid/a_t_2.mid, No, 1.8076246970013017, 1.794, 10, 2021_Jan_15_1700, 1205.0818366700005
experiment, 44, ./mid/a_p_19.mid, Yes, 1.6160389029973885, 1.599, 10, 2021_Jan_15_1700, 1229.5505352719993
experiment, 45, ./mid/a_p_6.mid, Yes, 2.024773899000138, 2.008, 10, 2021_Jan_15_1700, 1254.1178496489993
experiment, 46, ./mid/a_t_21.mid, Yes, 1.4652491359993292, 1.453, 10, 2021_Jan_15_1700, 1278.1987176460025
experiment, 47, ./mid/a_p_21.mid, No, 1.1786628419977205, 1.165, 10, 2021_Jan_15_1700, 1301.6578173060007
experiment, 48, ./mid/a_t_12.mid, No, 1.8756035930018697, 1.859, 10, 2021_Jan_15_1700, 1324.851202607002
