expMode,trialNumber,midFile,rating,RT1 (manual),RT2 (ratingScale),subjectNumber,date,globalClock
practice, 1, ./practice/d_p_1.mid, No, 10.53110025199976, 10.517, 17, 2021_Feb_03_1042, 2344.622471639
practice, 2, ./practice/d_t_2.mid, Yes, 4.479022447999796, 4.465, 17, 2021_Feb_03_1042, 2374.964485955
practice, 3, ./practice/d_p_2.mid, No, 1.987976652999805, 1.976, 17, 2021_Feb_03_1042, 2401.122202632
practice, 4, ./practice/d_t_1.mid, No, 2.2928178659999503, 2.279, 17, 2021_Feb_03_1042, 2425.330836421
experiment, 1, ./mid/d_p_10.mid, No, 6.00959689299998, 5.996, 17, 2021_Feb_03_1042, 2537.597020868
experiment, 2, ./mid/d_t_2.mid, No, 1.7051977179999085, 1.691, 17, 2021_Feb_03_1042, 2564.246836493
experiment, 3, ./mid/d_p_9.mid, Yes, 1.9873455970000578, 1.975, 17, 2021_Feb_03_1042, 2590.437576374
experiment, 4, ./mid/d_t_23.mid, No, 1.8654092199999468, 1.853, 17, 2021_Feb_03_1042, 2617.321061068
experiment, 5, ./mid/d_p_3.mid, No, 4.895442457000172, 4.882, 17, 2021_Feb_03_1042, 2646.129660786
experiment, 6, ./mid/d_p_8.mid, No, 5.905760284999815, 5.892, 17, 2021_Feb_03_1042, 2675.270538636
experiment, 7, ./mid/d_t_22.mid, Yes, 2.7448866980003004, 2.733, 17, 2021_Feb_03_1042, 2703.854050439
experiment, 8, ./mid/d_p_1.mid, No, 3.6947215479999613, 3.678, 17, 2021_Feb_03_1042, 2731.039617671
experiment, 9, ./mid/d_t_14.mid, No, 1.0227265379999153, 1.009, 17, 2021_Feb_03_1042, 2753.946283441
experiment, 10, ./mid/d_t_24.mid, No, 2.011463391000234, 1.998, 17, 2021_Feb_03_1042, 2780.145789366
experiment, 11, ./mid/d_p_23.mid, No, 1.6928806509999959, 1.68, 17, 2021_Feb_03_1042, 2805.095911626
experiment, 12, ./mid/d_p_11.mid, Yes, 1.693962375999945, 1.682, 17, 2021_Feb_03_1042, 2831.320298822
experiment, 13, ./mid/d_t_20.mid, Yes, 7.287014286000158, 7.275, 17, 2021_Feb_03_1042, 2864.336909156
experiment, 14, ./mid/d_t_21.mid, Yes, 1.5297113460001128, 1.517, 17, 2021_Feb_03_1042, 2890.870063366
experiment, 15, ./mid/d_p_5.mid, Yes, 1.2414458380003452, 1.227, 17, 2021_Feb_03_1042, 2915.796101328
experiment, 16, ./mid/d_t_13.mid, Yes, 1.4897027229999367, 1.476, 17, 2021_Feb_03_1042, 2939.99574723
experiment, 17, ./mid/d_p_15.mid, No, 1.4358221909997155, 1.423, 17, 2021_Feb_03_1042, 2963.736658599
experiment, 18, ./mid/d_t_3.mid, Yes, 1.7304871690002983, 1.718, 17, 2021_Feb_03_1042, 2987.520157366
experiment, 19, ./mid/d_t_7.mid, Yes, 1.4227568639998935, 1.406, 17, 2021_Feb_03_1042, 3011.08888866
experiment, 20, ./mid/d_p_19.mid, Yes, 1.9781225759998051, 1.964, 17, 2021_Feb_03_1042, 3035.303259549
experiment, 21, ./mid/d_t_12.mid, No, 1.588453723999919, 1.574, 17, 2021_Feb_03_1042, 3060.062342041
experiment, 22, ./mid/d_t_10.mid, No, 1.6248306030001913, 1.612, 17, 2021_Feb_03_1042, 3083.678890985
experiment, 23, ./mid/d_p_21.mid, No, 1.207635675000347, 1.194, 17, 2021_Feb_03_1042, 3107.536577298
experiment, 24, ./mid/d_t_8.mid, Yes, 0.9084386510003242, 0.892, 17, 2021_Feb_03_1042, 3130.372243584
experiment, 25, ./mid/d_t_15.mid, No, 1.4285167020002518, 1.416, 17, 2021_Feb_03_1042, 3153.469855441
experiment, 26, ./mid/d_t_16.mid, No, 1.29822035899997, 1.286, 17, 2021_Feb_03_1042, 3177.7866830479998
experiment, 27, ./mid/d_p_16.mid, No, 1.179815297999994, 1.166, 17, 2021_Feb_03_1042, 3201.119908025
experiment, 28, ./mid/d_t_19.mid, No, 3.1315321420001965, 3.115, 17, 2021_Feb_03_1042, 3228.388430765
experiment, 29, ./mid/d_t_9.mid, No, 1.396027575000062, 1.383, 17, 2021_Feb_03_1042, 3249.269973554
experiment, 30, ./mid/d_t_4.mid, Yes, 3.9976210579998224, 3.983, 17, 2021_Feb_03_1042, 3280.036379462
experiment, 31, ./mid/d_p_13.mid, Yes, 1.1272416500000872, 1.113, 17, 2021_Feb_03_1042, 3303.678729926
experiment, 32, ./mid/d_t_5.mid, Yes, 0.9286055540001144, 0.915, 17, 2021_Feb_03_1042, 3326.261940166
experiment, 33, ./mid/d_t_18.mid, No, 1.1411095489997933, 1.129, 17, 2021_Feb_03_1042, 3348.503020065
experiment, 34, ./mid/d_p_7.mid, No, 2.2994868380001208, 2.285, 17, 2021_Feb_03_1042, 3373.686544867
experiment, 35, ./mid/d_p_22.mid, Yes, 1.9267553770000632, 1.912, 17, 2021_Feb_03_1042, 3399.046032304
experiment, 36, ./mid/d_p_14.mid, No, 1.8723974049999015, 1.86, 17, 2021_Feb_03_1042, 3423.769761958
experiment, 37, ./mid/d_p_18.mid, Yes, 1.2943320220001624, 1.28, 17, 2021_Feb_03_1042, 3447.803044609
experiment, 38, ./mid/d_p_2.mid, No, 1.4633692389998032, 1.451, 17, 2021_Feb_03_1042, 3473.019949798
experiment, 39, ./mid/d_p_12.mid, Yes, 1.1477019710000604, 1.135, 17, 2021_Feb_03_1042, 3495.570013449
experiment, 40, ./mid/d_p_20.mid, Yes, 1.2811907790000987, 1.264, 17, 2021_Feb_03_1042, 3519.505277438
experiment, 41, ./mid/d_p_17.mid, No, 7.078553653999734, 7.065, 17, 2021_Feb_03_1042, 3548.761947845
experiment, 42, ./mid/d_t_17.mid, No, 0.8323830520002957, 0.818, 17, 2021_Feb_03_1042, 3572.119749197
experiment, 43, ./mid/d_t_11.mid, Yes, 4.5558527180000965, 4.544, 17, 2021_Feb_03_1042, 3599.469690105
experiment, 44, ./mid/d_p_4.mid, No, 1.3304114600000503, 1.313, 17, 2021_Feb_03_1042, 3622.305532968
experiment, 45, ./mid/d_p_24.mid, Yes, 1.2780831029999717, 1.264, 17, 2021_Feb_03_1042, 3646.269878786
experiment, 46, ./mid/d_t_6.mid, Yes, 1.6939470120000806, 1.677, 17, 2021_Feb_03_1042, 3674.588775325
experiment, 47, ./mid/d_t_1.mid, No, 1.228191207999771, 1.215, 17, 2021_Feb_03_1042, 3697.595144067
experiment, 48, ./mid/d_p_6.mid, Yes, 1.180736324999998, 1.168, 17, 2021_Feb_03_1042, 3722.73627711
